Temperature (K)	Pressure (MPa)	Density (l, kg/m3)	Volume (l, m3/kg)	Internal Energy (l, kJ/kg)	Enthalpy (l, kJ/kg)	Entropy (l, J/g*K)	Cv (l, J/g*K)	Cp (l, J/g*K)	Sound Spd. (l, m/s)	Joule-Thomson (l, K/MPa)	Viscosity (l, Pa*s)	Therm. Cond. (l, W/m*K)	Surf. Tension (l, N/m)	Density (v, kg/m3)	Volume (v, m3/kg)	Internal Energy (v, kJ/kg)	Enthalpy (v, kJ/kg)	Entropy (v, J/g*K)	Cv (v, J/g*K)	Cp (v, J/g*K)	Sound Spd. (v, m/s)	Joule-Thomson (v, K/MPa)	Viscosity (v, Pa*s)	Therm. Cond. (v, W/m*K)
18.195	0.050000	73.180	0.013665	-21.193	-20.510	-1.0267	5.5130	8.6689	1175.5	-1.1734	1.6288e-05	0.10268	0.0022890	0.70819	1.4120	364.39	434.99	24.008	6.3756	11.323	342.66	20.815	8.7664e-07	0.014898
18.717	0.060000	72.646	0.013765	-16.647	-15.821	-0.78007	5.5503	8.9156	1162.7	-1.1216	1.5538e-05	0.10302	0.0021981	0.83295	1.2006	366.57	438.60	23.499	6.3908	11.466	346.25	20.141	9.0513e-07	0.015483
19.178	0.070000	72.161	0.013858	-12.524	-11.554	-0.56214	5.5822	9.1425	1151.0	-1.0754	1.4920e-05	0.10328	0.0021178	0.95579	1.0463	368.40	441.64	23.068	6.4053	11.607	349.27	19.584	9.3043e-07	0.016015
19.594	0.080000	71.712	0.013945	-8.7254	-7.6098	-0.36587	5.6101	9.3547	1140.1	-1.0333	1.4395e-05	0.10347	0.0020457	1.0771	0.92839	369.97	444.24	22.694	6.4194	11.745	351.87	19.108	9.5333e-07	0.016505
19.974	0.090000	71.294	0.014026	-5.1855	-3.9231	-0.18659	5.6352	9.5556	1129.8	-0.99446	1.3940e-05	0.10360	0.0019799	1.1973	0.83523	371.32	446.49	22.363	6.4333	11.882	354.15	18.693	9.7434e-07	0.016964
20.324	0.10000	70.899	0.014105	-1.8572	-0.44679	-0.021040	5.6580	9.7476	1120.1	-0.95816	1.3540e-05	0.10370	0.0019193	1.3164	0.75962	372.50	448.47	22.066	6.4471	12.018	356.17	18.325	9.9384e-07	0.017396
20.650	0.11000	70.524	0.014179	1.2941	2.8539	0.13316	5.6791	9.9324	1110.9	-0.92394	1.3183e-05	0.10377	0.0018631	1.4348	0.69695	373.55	450.21	21.797	6.4609	12.155	357.98	17.994	1.0121e-06	0.017806
20.956	0.12000	70.167	0.014252	4.2951	6.0053	0.27782	5.6987	10.111	1102.0	-0.89144	1.2861e-05	0.10381	0.0018105	1.5526	0.64410	374.47	451.76	21.549	6.4748	12.291	359.61	17.693	1.0293e-06	0.018199
21.243	0.13000	69.824	0.014322	7.1663	9.0281	0.41431	5.7170	10.285	1093.5	-0.86039	1.2568e-05	0.10382	0.0017610	1.6698	0.59889	375.30	453.15	21.321	6.4886	12.428	361.08	17.417	1.0456e-06	0.018576
21.516	0.14000	69.494	0.014390	9.9244	11.939	0.54375	5.7343	10.455	1085.3	-0.83057	1.2300e-05	0.10382	0.0017143	1.7866	0.55974	376.03	454.39	21.108	6.5025	12.565	362.43	17.162	1.0611e-06	0.018939
21.774	0.15000	69.175	0.014456	12.583	14.751	0.66701	5.7507	10.622	1077.3	-0.80181	1.2053e-05	0.10381	0.0016700	1.9030	0.52548	376.68	455.51	20.909	6.5164	12.703	363.66	16.926	1.0760e-06	0.019290
22.021	0.16000	68.867	0.014521	15.153	17.476	0.78482	5.7663	10.786	1069.6	-0.77396	1.1824e-05	0.10378	0.0016278	2.0192	0.49524	377.27	456.51	20.722	6.5304	12.842	364.79	16.704	1.0903e-06	0.019631
22.257	0.17000	68.567	0.014584	17.643	20.122	0.89778	5.7811	10.947	1062.1	-0.74691	1.1610e-05	0.10373	0.0015875	2.1352	0.46834	377.80	457.41	20.545	6.5444	12.982	365.84	16.496	1.1041e-06	0.019963
22.483	0.18000	68.275	0.014647	20.062	22.698	1.0064	5.7953	11.107	1054.7	-0.72056	1.1410e-05	0.10368	0.0015490	2.2511	0.44423	378.27	458.23	20.378	6.5584	13.123	366.80	16.300	1.1174e-06	0.020287
22.701	0.19000	67.990	0.014708	22.416	25.211	1.1111	5.8089	11.265	1047.5	-0.69482	1.1223e-05	0.10362	0.0015120	2.3669	0.42250	378.68	458.96	20.218	6.5724	13.265	367.70	16.115	1.1303e-06	0.020604
22.910	0.20000	67.712	0.014768	24.711	27.665	1.2123	5.8220	11.421	1040.5	-0.66963	1.1046e-05	0.10355	0.0014764	2.4826	0.40280	379.06	459.62	20.066	6.5865	13.408	368.53	15.939	1.1428e-06	0.020914
23.113	0.21000	67.439	0.014828	26.953	30.066	1.3102	5.8346	11.577	1033.6	-0.64491	1.0878e-05	0.10347	0.0014421	2.5984	0.38485	379.39	460.21	19.921	6.6006	13.553	369.31	15.771	1.1550e-06	0.021218
23.308	0.22000	67.173	0.014887	29.144	32.419	1.4052	5.8468	11.732	1026.9	-0.62061	1.0720e-05	0.10338	0.0014090	2.7142	0.36843	379.68	460.73	19.781	6.6147	13.700	370.03	15.611	1.1669e-06	0.021516
23.498	0.23000	66.911	0.014945	31.290	34.728	1.4974	5.8586	11.887	1020.3	-0.59668	1.0569e-05	0.10329	0.0013771	2.8301	0.35334	379.93	461.20	19.647	6.6288	13.848	370.71	15.458	1.1785e-06	0.021810
23.681	0.24000	66.654	0.015003	33.394	36.995	1.5872	5.8700	12.041	1013.7	-0.57309	1.0425e-05	0.10319	0.0013461	2.9461	0.33943	380.15	461.62	19.518	6.6429	13.998	371.34	15.311	1.1898e-06	0.022100
23.860	0.25000	66.401	0.015060	35.459	39.224	1.6746	5.8811	12.195	1007.3	-0.54979	1.0288e-05	0.10309	0.0013161	3.0623	0.32655	380.34	461.98	19.393	6.6571	14.149	371.93	15.170	1.2009e-06	0.022385
24.033	0.26000	66.151	0.015117	37.487	41.417	1.7599	5.8919	12.349	1001.0	-0.52675	1.0156e-05	0.10298	0.0012870	3.1786	0.31460	380.50	462.30	19.273	6.6712	14.303	372.48	15.035	1.2118e-06	0.022667
24.202	0.27000	65.906	0.015173	39.481	43.578	1.8432	5.9024	12.503	994.78	-0.50394	1.0030e-05	0.10287	0.0012587	3.2952	0.30347	380.64	462.57	19.156	6.6854	14.459	373.00	14.904	1.2225e-06	0.022945
24.366	0.28000	65.664	0.015229	41.444	45.708	1.9247	5.9126	12.657	988.64	-0.48133	9.9093e-06	0.10277	0.0012312	3.4120	0.29308	380.74	462.81	19.043	6.6996	14.617	373.49	14.778	1.2331e-06	0.023221
24.527	0.29000	65.425	0.015285	43.377	47.810	2.0044	5.9226	12.812	982.57	-0.45889	9.7929e-06	0.10267	0.0012045	3.5291	0.28336	380.82	463.00	18.933	6.7138	14.777	373.95	14.656	1.2434e-06	0.023494
24.683	0.30000	65.189	0.015340	45.282	49.884	2.0825	5.9323	12.968	976.58	-0.43660	9.6807e-06	0.10256	0.0011784	3.6464	0.27424	380.88	463.15	18.826	6.7280	14.940	374.38	14.538	1.2536e-06	0.023764
24.836	0.31000	64.955	0.015395	47.161	51.934	2.1591	5.9418	13.124	970.66	-0.41444	9.5725e-06	0.10246	0.0011530	3.7640	0.26567	380.92	463.28	18.722	6.7422	15.105	374.78	14.424	1.2637e-06	0.024032
24.985	0.32000	64.724	0.015450	49.016	53.960	2.2342	5.9512	13.282	964.80	-0.39239	9.4680e-06	0.10234	0.0011282	3.8820	0.25760	380.93	463.36	18.620	6.7564	15.272	375.16	14.313	1.2737e-06	0.024298
25.131	0.33000	64.496	0.015505	50.847	55.964	2.3080	5.9603	13.440	959.00	-0.37043	9.3668e-06	0.10223	0.0011040	4.0004	0.24998	380.93	463.42	18.521	6.7706	15.442	375.51	14.205	1.2835e-06	0.024562
25.275	0.34000	64.269	0.015559	52.657	57.947	2.3806	5.9693	13.600	953.26	-0.34854	9.2689e-06	0.10211	0.0010804	4.1191	0.24277	380.90	463.44	18.424	6.7849	15.615	375.85	14.100	1.2932e-06	0.024825
25.415	0.35000	64.045	0.015614	54.446	59.911	2.4519	5.9782	13.761	947.57	-0.32670	9.1739e-06	0.10198	0.0010573	4.2382	0.23595	380.86	463.44	18.330	6.7991	15.791	376.16	13.998	1.3028e-06	0.025086
25.552	0.36000	63.823	0.015668	56.216	61.857	2.5221	5.9869	13.923	941.93	-0.30491	9.0818e-06	0.10186	0.0010347	4.3577	0.22948	380.79	463.41	18.237	6.8134	15.970	376.46	13.898	1.3123e-06	0.025346
25.687	0.37000	63.602	0.015723	57.968	63.785	2.5913	5.9955	14.087	936.34	-0.28313	8.9922e-06	0.10173	0.0010125	4.4777	0.22333	380.71	463.35	18.146	6.8277	16.153	376.73	13.801	1.3218e-06	0.025605
25.819	0.38000	63.383	0.015777	59.702	65.697	2.6594	6.0039	14.252	930.79	-0.26137	8.9051e-06	0.10160	0.00099089	4.5981	0.21748	380.62	463.26	18.057	6.8420	16.338	376.99	13.706	1.3311e-06	0.025862
25.949	0.39000	63.165	0.015831	61.420	67.594	2.7265	6.0122	14.420	925.29	-0.23961	8.8204e-06	0.10147	0.00096968	4.7191	0.21191	380.50	463.15	17.970	6.8563	16.527	377.23	13.613	1.3404e-06	0.026120
26.076	0.40000	62.949	0.015886	63.122	69.476	2.7928	6.0205	14.589	919.83	-0.21783	8.7378e-06	0.10134	0.00094889	4.8405	0.20659	380.37	463.01	17.884	6.8706	16.719	377.46	13.523	1.3496e-06	0.026376
26.202	0.41000	62.735	0.015940	64.809	71.345	2.8582	6.0286	14.760	914.40	-0.19603	8.6573e-06	0.10120	0.00092852	4.9624	0.20151	380.23	462.85	17.800	6.8850	16.916	377.67	13.434	1.3587e-06	0.026632
26.325	0.42000	62.521	0.015995	66.483	73.201	2.9228	6.0367	14.934	909.01	-0.17418	8.5787e-06	0.10106	0.00090854	5.0849	0.19666	380.07	462.67	17.717	6.8994	17.116	377.87	13.347	1.3678e-06	0.026888
26.446	0.43000	62.309	0.016049	68.143	75.044	2.9866	6.0446	15.109	903.65	-0.15229	8.5019e-06	0.10092	0.00088893	5.2079	0.19202	379.90	462.46	17.636	6.9138	17.320	378.06	13.262	1.3769e-06	0.027143
26.565	0.44000	62.097	0.016104	69.791	76.877	3.0497	6.0525	15.287	898.32	-0.13033	8.4269e-06	0.10078	0.00086970	5.3315	0.18756	379.71	462.24	17.556	6.9282	17.528	378.23	13.178	1.3859e-06	0.027398
26.682	0.45000	61.887	0.016158	71.427	78.698	3.1120	6.0604	15.468	893.02	-0.10830	8.3536e-06	0.10064	0.00085081	5.4558	0.18329	379.50	461.99	17.477	6.9427	17.740	378.39	13.096	1.3948e-06	0.027654
26.798	0.46000	61.678	0.016213	73.052	80.510	3.1737	6.0682	15.652	887.75	-0.086191	8.2818e-06	0.10049	0.00083226	5.5806	0.17919	379.29	461.72	17.399	6.9572	17.957	378.54	13.016	1.4037e-06	0.027909
26.912	0.47000	61.469	0.016268	74.666	82.312	3.2348	6.0759	15.838	882.50	-0.063984	8.2115e-06	0.10034	0.00081405	5.7061	0.17525	379.06	461.43	17.322	6.9717	18.179	378.67	12.937	1.4126e-06	0.028165
27.024	0.48000	61.261	0.016324	76.270	84.105	3.2952	6.0837	16.027	877.28	-0.041674	8.1427e-06	0.10019	0.00079615	5.8322	0.17146	378.82	461.12	17.246	6.9863	18.406	378.80	12.859	1.4214e-06	0.028421
27.134	0.49000	61.054	0.016379	77.864	85.890	3.3551	6.0913	16.220	872.08	-0.019250	8.0751e-06	0.10004	0.00077855	5.9590	0.16781	378.56	460.79	17.172	7.0009	18.637	378.92	12.782	1.4303e-06	0.028678
27.243	0.50000	60.847	0.016435	79.450	87.667	3.4144	6.0990	16.416	866.90	0.0032985	8.0089e-06	0.099892	0.00076126	6.0866	0.16430	378.29	460.44	17.098	7.0155	18.874	379.02	12.707	1.4391e-06	0.028935
27.350	0.51000	60.641	0.016490	81.027	89.437	3.4732	6.1066	16.615	861.74	0.025981	7.9438e-06	0.099739	0.00074425	6.2148	0.16091	378.01	460.07	17.025	7.0302	19.117	379.12	12.632	1.4479e-06	0.029194
27.456	0.52000	60.436	0.016547	82.595	91.200	3.5315	6.1143	16.818	856.60	0.048807	7.8799e-06	0.099584	0.00072753	6.3438	0.15763	377.71	459.68	16.952	7.0450	19.365	379.21	12.559	1.4567e-06	0.029453
27.560	0.53000	60.230	0.016603	84.157	92.956	3.5894	6.1219	17.025	851.47	0.071786	7.8172e-06	0.099428	0.00071108	6.4736	0.15447	377.41	459.28	16.881	7.0597	19.619	379.29	12.486	1.4654e-06	0.029713
27.663	0.54000	60.026	0.016660	85.711	94.707	3.6468	6.1295	17.236	846.36	0.094930	7.7554e-06	0.099270	0.00069489	6.6042	0.15142	377.09	458.85	16.810	7.0746	19.880	379.36	12.415	1.4742e-06	0.029974
27.765	0.55000	59.821	0.016717	87.259	96.453	3.7037	6.1371	17.451	841.27	0.11825	7.6947e-06	0.099111	0.00067896	6.7356	0.14847	376.76	458.41	16.740	7.0895	20.147	379.42	12.345	1.4829e-06	0.030237
27.866	0.56000	59.617	0.016774	88.800	98.193	3.7603	6.1448	17.671	836.18	0.14175	7.6349e-06	0.098951	0.00066329	6.8678	0.14561	376.41	457.95	16.671	7.1044	20.421	379.48	12.275	1.4917e-06	0.030501
27.965	0.57000	59.413	0.016831	90.336	99.930	3.8165	6.1524	17.895	831.11	0.16544	7.5761e-06	0.098789	0.00064785	7.0009	0.14284	376.06	457.47	16.602	7.1194	20.702	379.53	12.206	1.5005e-06	0.030767
28.063	0.58000	59.208	0.016889	91.866	101.66	3.8723	6.1601	18.124	826.05	0.18934	7.5181e-06	0.098626	0.00063266	7.1349	0.14016	375.69	456.98	16.534	7.1345	20.990	379.57	12.138	1.5092e-06	0.031034
28.159	0.59000	59.004	0.016948	93.391	103.39	3.9277	6.1679	18.359	821.00	0.21345	7.4609e-06	0.098462	0.00061770	7.2698	0.13755	375.31	456.47	16.466	7.1496	21.286	379.61	12.070	1.5180e-06	0.031303
28.255	0.60000	58.800	0.017007	94.911	105.12	3.9829	6.1756	18.598	815.96	0.23778	7.4045e-06	0.098296	0.00060297	7.4057	0.13503	374.92	455.93	16.399	7.1648	21.590	379.63	12.004	1.5268e-06	0.031574
28.350	0.61000	58.596	0.017066	96.427	106.84	4.0377	6.1834	18.844	810.92	0.26235	7.3489e-06	0.098129	0.00058847	7.5426	0.13258	374.51	455.39	16.332	7.1800	21.903	379.66	11.937	1.5356e-06	0.031848
28.443	0.62000	58.392	0.017126	97.940	108.56	4.0923	6.1913	19.095	805.90	0.28717	7.2940e-06	0.097961	0.00057418	7.6804	0.13020	374.10	454.82	16.266	7.1954	22.224	379.67	11.872	1.5444e-06	0.032123
28.535	0.63000	58.188	0.017186	99.448	110.28	4.1465	6.1992	19.353	800.87	0.31224	7.2399e-06	0.097791	0.00056010	7.8193	0.12789	373.67	454.24	16.200	7.2108	22.555	379.68	11.807	1.5533e-06	0.032401
28.627	0.64000	57.983	0.017246	100.95	111.99	4.2006	6.2072	19.617	795.85	0.33758	7.1863e-06	0.097621	0.00054624	7.9592	0.12564	373.23	453.64	16.135	7.2262	22.895	379.68	11.742	1.5622e-06	0.032681
28.717	0.65000	57.778	0.017307	102.46	113.71	4.2543	6.2152	19.888	790.83	0.36320	7.1334e-06	0.097449	0.00053257	8.1003	0.12345	372.78	453.02	16.070	7.2418	23.246	379.68	11.678	1.5711e-06	0.032964
28.806	0.66000	57.573	0.017369	103.96	115.42	4.3079	6.2233	20.166	785.82	0.38911	7.0811e-06	0.097276	0.00051911	8.2425	0.12132	372.31	452.39	16.005	7.2574	23.607	379.68	11.615	1.5800e-06	0.033250
28.895	0.67000	57.368	0.017431	105.45	117.13	4.3613	6.2315	20.452	780.81	0.41532	7.0294e-06	0.097101	0.00050585	8.3858	0.11925	371.84	451.73	15.941	7.2732	23.980	379.66	11.552	1.5890e-06	0.033539
28.982	0.68000	57.162	0.017494	106.95	118.85	4.4144	6.2398	20.746	775.79	0.44185	6.9782e-06	0.096926	0.00049278	8.5304	0.11723	371.35	451.06	15.877	7.2890	24.364	379.65	11.489	1.5980e-06	0.033832
29.069	0.69000	56.955	0.017558	108.45	120.56	4.4674	6.2482	21.049	770.78	0.46871	6.9275e-06	0.096749	0.00047991	8.6761	0.11526	370.85	450.37	15.813	7.3049	24.761	379.62	11.426	1.6071e-06	0.034127
29.154	0.70000	56.748	0.017622	109.94	122.27	4.5203	6.2567	21.360	765.76	0.49591	6.8773e-06	0.096571	0.00046722	8.8232	0.11334	370.33	449.67	15.750	7.3209	25.171	379.60	11.364	1.6162e-06	0.034426
29.239	0.71000	56.540	0.017687	111.43	123.99	4.5730	6.2653	21.681	760.74	0.52347	6.8276e-06	0.096392	0.00045471	8.9716	0.11146	369.80	448.94	15.687	7.3370	25.594	379.57	11.302	1.6254e-06	0.034729
29.323	0.72000	56.332	0.017752	112.93	125.71	4.6256	6.2740	22.011	755.72	0.55139	6.7783e-06	0.096211	0.00044239	9.1213	0.10963	369.27	448.20	15.623	7.3532	26.032	379.53	11.241	1.6346e-06	0.035037
29.406	0.73000	56.123	0.017818	114.42	127.43	4.6780	6.2829	22.353	750.69	0.57970	6.7294e-06	0.096030	0.00043025	9.2725	0.10785	368.71	447.44	15.561	7.3695	26.485	379.49	11.179	1.6439e-06	0.035348
29.489	0.74000	55.913	0.017885	115.91	129.15	4.7304	6.2919	22.705	745.65	0.60841	6.6810e-06	0.095848	0.00041828	9.4250	0.10610	368.15	446.66	15.498	7.3859	26.955	379.45	11.118	1.6532e-06	0.035663
29.570	0.75000	55.702	0.017953	117.40	130.87	4.7827	6.3010	23.069	740.61	0.63753	6.6329e-06	0.095664	0.00040649	9.5791	0.10439	367.57	445.86	15.435	7.4025	27.441	379.40	11.057	1.6626e-06	0.035984
29.651	0.76000	55.490	0.018021	118.90	132.60	4.8349	6.3103	23.445	735.56	0.66709	6.5852e-06	0.095479	0.00039487	9.7347	0.10272	366.98	445.05	15.373	7.4191	27.945	379.34	10.996	1.6721e-06	0.036309
29.731	0.77000	55.277	0.018091	120.40	134.33	4.8871	6.3197	23.835	730.51	0.69709	6.5378e-06	0.095294	0.00038342	9.8920	0.10109	366.37	444.21	15.310	7.4359	28.468	379.29	10.935	1.6816e-06	0.036640
29.810	0.78000	55.063	0.018161	121.89	136.06	4.9393	6.3293	24.239	725.44	0.72756	6.4907e-06	0.095107	0.00037215	10.051	0.099494	365.75	443.35	15.248	7.4528	29.012	379.23	10.874	1.6913e-06	0.036976
29.889	0.79000	54.848	0.018232	123.39	137.80	4.9914	6.3391	24.657	720.36	0.75852	6.4439e-06	0.094919	0.00036103	10.211	0.097929	365.11	442.48	15.185	7.4699	29.577	379.16	10.813	1.7010e-06	0.037317
29.967	0.80000	54.632	0.018304	124.90	139.54	5.0435	6.3491	25.092	715.27	0.78998	6.3974e-06	0.094731	0.00035009	10.374	0.096397	364.47	441.58	15.123	7.4870	30.164	379.10	10.753	1.7108e-06	0.037665
30.044	0.81000	54.414	0.018378	126.40	141.29	5.0957	6.3593	25.543	710.17	0.82197	6.3511e-06	0.094541	0.00033931	10.538	0.094895	363.80	440.67	15.060	7.5043	30.776	379.03	10.692	1.7206e-06	0.038019
30.120	0.82000	54.195	0.018452	127.91	143.04	5.1479	6.3697	26.012	705.05	0.85450	6.3051e-06	0.094351	0.00032869	10.704	0.093422	363.12	439.73	14.998	7.5218	31.413	378.95	10.631	1.7306e-06	0.038380
30.196	0.83000	53.975	0.018527	129.43	144.81	5.2002	6.3803	26.500	699.91	0.88760	6.2592e-06	0.094160	0.00031823	10.872	0.091978	362.43	438.77	14.935	7.5394	32.078	378.87	10.570	1.7407e-06	0.038748
30.271	0.84000	53.752	0.018604	130.95	146.57	5.2525	6.3912	27.008	694.77	0.92129	6.2136e-06	0.093968	0.00030794	11.042	0.090561	361.72	437.79	14.873	7.5571	32.772	378.79	10.509	1.7509e-06	0.039124
30.346	0.85000	53.529	0.018682	132.47	148.35	5.3049	6.4023	27.539	689.60	0.95560	6.1681e-06	0.093776	0.00029780	11.215	0.089170	360.99	436.78	14.810	7.5750	33.497	378.71	10.448	1.7612e-06	0.039507
30.419	0.86000	53.303	0.018761	134.00	150.13	5.3574	6.4136	28.093	684.41	0.99055	6.1228e-06	0.093583	0.00028783	11.389	0.087804	360.24	435.76	14.747	7.5931	34.255	378.62	10.386	1.7716e-06	0.039899
30.493	0.87000	53.076	0.018841	135.53	151.92	5.4101	6.4252	28.672	679.21	1.0262	6.0776e-06	0.093390	0.00027801	11.566	0.086462	359.48	434.70	14.684	7.6113	35.050	378.53	10.325	1.7822e-06	0.040299
30.565	0.88000	52.846	0.018923	137.07	153.72	5.4629	6.4372	29.278	673.98	1.0625	6.0325e-06	0.093197	0.00026835	11.745	0.085142	358.70	433.63	14.621	7.6298	35.883	378.44	10.263	1.7929e-06	0.040709
30.637	0.89000	52.615	0.019006	138.62	155.54	5.5159	6.4494	29.914	668.73	1.0995	5.9875e-06	0.093003	0.00025885	11.927	0.083845	357.91	432.53	14.557	7.6483	36.757	378.34	10.201	1.8037e-06	0.041129
30.709	0.90000	52.381	0.019091	140.18	157.36	5.5691	6.4620	30.581	663.46	1.1373	5.9425e-06	0.092810	0.00024951	12.111	0.082569	357.09	431.40	14.493	7.6671	37.676	378.24	10.138	1.8147e-06	0.041559
30.779	0.91000	52.145	0.019177	141.74	159.19	5.6225	6.4748	31.282	658.16	1.1760	5.8976e-06	0.092616	0.00024032	12.298	0.081314	356.25	430.25	14.429	7.6861	38.643	378.14	10.075	1.8259e-06	0.042000
30.850	0.92000	51.907	0.019265	143.31	161.04	5.6762	6.4881	32.019	652.83	1.2154	5.8528e-06	0.092423	0.00023129	12.488	0.080077	355.40	429.07	14.364	7.7053	39.663	378.04	10.012	1.8372e-06	0.042453
30.919	0.93000	51.665	0.019355	144.89	162.90	5.7301	6.5017	32.797	647.48	1.2557	5.8079e-06	0.092231	0.00022243	12.681	0.078859	354.52	427.86	14.300	7.7246	40.738	377.93	9.9484	1.8487e-06	0.042919
30.989	0.94000	51.421	0.019447	146.49	164.77	5.7843	6.5158	33.619	642.10	1.2969	5.7630e-06	0.092040	0.00021372	12.877	0.077659	353.62	426.62	14.234	7.7442	41.875	377.82	9.8841	1.8603e-06	0.043397
31.057	0.95000	51.174	0.019541	148.09	166.66	5.8389	6.5302	34.487	636.68	1.3391	5.7180e-06	0.091851	0.00020517	13.076	0.076476	352.70	425.35	14.168	7.7640	43.079	377.71	9.8193	1.8722e-06	0.043890
31.125	0.96000	50.924	0.019637	149.71	168.56	5.8938	6.5452	35.408	631.23	1.3823	5.6730e-06	0.091663	0.00019678	13.279	0.075308	351.75	424.05	14.102	7.7840	44.355	377.59	9.7540	1.8843e-06	0.044398
31.193	0.97000	50.671	0.019735	151.34	170.48	5.9491	6.5606	36.386	625.75	1.4265	5.6279e-06	0.091477	0.00018856	13.485	0.074156	350.78	422.71	14.035	7.8043	45.712	377.47	9.6879	1.8966e-06	0.044923
31.260	0.98000	50.414	0.019836	152.98	172.42	6.0049	6.5765	37.426	620.23	1.4719	5.5826e-06	0.091294	0.00018049	13.695	0.073018	349.79	421.34	13.968	7.8248	47.155	377.35	9.6212	1.9092e-06	0.045464
31.326	0.99000	50.153	0.019939	154.64	174.38	6.0611	6.5929	38.535	614.67	1.5184	5.5371e-06	0.091114	0.00017260	13.910	0.071893	348.76	419.94	13.900	7.8456	48.695	377.23	9.5537	1.9220e-06	0.046024
31.393	1.0000	49.888	0.020045	156.31	176.36	6.1179	6.6099	39.721	609.07	1.5661	5.4915e-06	0.090938	0.00016486	14.128	0.070781	347.71	418.49	13.831	7.8666	50.341	377.10	9.4853	1.9350e-06	0.046604
31.458	1.0100	49.619	0.020154	158.00	178.36	6.1752	6.6276	40.991	603.43	1.6151	5.4456e-06	0.090767	0.00015730	14.351	0.069682	346.63	417.01	13.761	7.8879	52.104	376.97	9.4161	1.9484e-06	0.047205
31.523	1.0200	49.345	0.020265	159.72	180.39	6.2331	6.6458	42.355	597.74	1.6655	5.3995e-06	0.090602	0.00014991	14.579	0.068593	345.52	415.48	13.691	7.9094	53.998	376.84	9.3459	1.9620e-06	0.047830
31.588	1.0300	49.066	0.020381	161.45	182.44	6.2917	6.6648	43.825	592.00	1.7174	5.3530e-06	0.090444	0.00014269	14.812	0.067514	344.37	413.91	13.620	7.9313	56.037	376.71	9.2746	1.9760e-06	0.048479
31.652	1.0400	48.783	0.020499	163.20	184.52	6.3511	6.6846	45.414	586.21	1.7708	5.3062e-06	0.090294	0.00013565	15.050	0.066445	343.19	412.30	13.547	7.9534	58.240	376.57	9.2022	1.9904e-06	0.049156
31.715	1.0500	48.493	0.020622	164.98	186.63	6.4112	6.7051	47.136	580.36	1.8258	5.2590e-06	0.090154	0.00012880	15.294	0.065385	341.98	410.63	13.474	7.9758	60.626	376.44	9.1286	2.0051e-06	0.049862
31.778	1.0600	48.197	0.020748	166.78	188.77	6.4722	6.7265	49.009	574.46	1.8825	5.2114e-06	0.090026	0.00012212	15.544	0.064332	340.72	408.91	13.399	7.9986	63.219	376.30	9.0536	2.0202e-06	0.050601
31.841	1.0700	47.895	0.020879	168.61	190.95	6.5342	6.7488	51.055	568.50	1.9411	5.1632e-06	0.089911	0.00011563	15.801	0.063285	339.42	407.14	13.324	8.0217	66.047	376.15	8.9771	2.0358e-06	0.051375
31.903	1.0800	47.585	0.021015	170.47	193.17	6.5972	6.7722	53.299	562.47	2.0017	5.1145e-06	0.089812	0.00010934	16.066	0.062244	338.08	405.30	13.246	8.0451	69.145	376.01	8.8991	2.0519e-06	0.052189
31.965	1.0900	47.268	0.021156	172.37	195.43	6.6613	6.7966	55.771	556.37	2.0643	5.0652e-06	0.089733	0.00010325	16.338	0.061208	336.69	403.40	13.168	8.0689	72.551	375.86	8.8193	2.0685e-06	0.053046
32.027	1.1000	46.942	0.021303	174.30	197.74	6.7268	6.8222	58.508	550.19	2.1293	5.0151e-06	0.089676	9.7356e-05	16.618	0.060175	335.24	401.44	13.087	8.0931	76.315	375.71	8.7376	2.0856e-06	0.053950
32.087	1.1100	46.608	0.021456	176.28	200.09	6.7936	6.8492	61.556	543.94	2.1967	4.9642e-06	0.089646	9.1678e-05	16.908	0.059145	333.74	399.39	13.005	8.1176	80.495	375.56	8.6539	2.1034e-06	0.054909
32.148	1.1200	46.262	0.021616	178.29	202.50	6.8620	6.8775	64.968	537.60	2.2667	4.9124e-06	0.089647	8.6219e-05	17.207	0.058115	332.18	397.27	12.920	8.1425	85.165	375.41	8.5679	2.1219e-06	0.055928
32.208	1.1300	45.906	0.021784	180.36	204.98	6.9321	6.9074	68.817	531.16	2.3396	4.8597e-06	0.089686	8.0987e-05	17.518	0.057084	330.55	395.06	12.834	8.1678	90.414	375.26	8.4794	2.1411e-06	0.057016
32.268	1.1400	45.538	0.021960	182.48	207.52	7.0041	6.9390	73.190	524.63	2.4156	4.8057e-06	0.089770	7.5993e-05	17.841	0.056050	328.85	392.75	12.745	8.1935	96.356	375.10	8.3881	2.1612e-06	0.058182
32.327	1.1500	45.155	0.022146	184.67	210.14	7.0784	6.9725	78.201	517.99	2.4951	4.7505e-06	0.089907	7.1247e-05	18.178	0.055013	327.07	390.34	12.653	8.2196	103.14	374.94	8.2937	2.1822e-06	0.059438
32.385	1.1600	44.757	0.022343	186.92	212.84	7.1551	7.0082	83.999	511.23	2.5783	4.6938e-06	0.090107	6.6761e-05	18.529	0.053968	325.20	387.80	12.558	8.2461	110.95	374.79	8.1958	2.2044e-06	0.060798
32.444	1.1700	44.341	0.022552	189.26	215.64	7.2346	7.0463	90.783	504.34	2.6657	4.6355e-06	0.090384	6.2550e-05	18.898	0.052914	323.22	385.13	12.459	8.2731	120.04	374.63	8.0941	2.2277e-06	0.062281
32.502	1.1800	43.905	0.022776	191.68	218.56	7.3174	7.0871	98.822	497.31	2.7577	4.5751e-06	0.090753	5.8628e-05	19.287	0.051848	321.13	382.32	12.356	8.3004	130.76	374.48	7.9879	2.2525e-06	0.063911
32.559	1.1900	43.447	0.023017	194.21	221.60	7.4040	7.1311	108.49	490.12	2.8550	4.5126e-06	0.091235	5.5015e-05	19.698	0.050766	318.91	379.33	12.248	8.3281	143.56	374.32	7.8766	2.2789e-06	0.065718
32.616	1.2000	42.960	0.023277	196.87	224.80	7.4950	7.1786	120.34	482.75	2.9583	4.4473e-06	0.091858	5.1731e-05	20.136	0.049663	316.54	376.14	12.135	8.3561	159.12	374.18	7.7595	2.3072e-06	0.067743
32.673	1.2100	42.442	0.023561	199.67	228.18	7.5914	7.2305	135.16	475.18	3.0684	4.3789e-06	0.092661	4.8800e-05	20.604	0.048533	313.99	372.72	12.015	8.3843	178.43	374.04	7.6354	2.3379e-06	0.070043
32.729	1.2200	41.886	0.023875	202.65	231.78	7.6942	7.2873	154.20	467.38	3.1867	4.3067e-06	0.093697	4.6249e-05	21.111	0.047369	311.23	369.02	11.887	8.4127	202.98	373.91	7.5031	2.3713e-06	0.072698
32.785	1.2300	41.281	0.024224	205.86	235.65	7.8051	7.3504	179.49	459.30	3.3146	4.2298e-06	0.095051	4.4109e-05	21.663	0.046161	308.20	364.98	11.750	8.4410	235.23	373.80	7.3607	2.4083e-06	0.075827
32.840	1.2400	40.616	0.024621	209.35	239.88	7.9263	7.4210	214.58	450.90	3.4543	4.1468e-06	0.096861	4.2412e-05	22.274	0.044895	304.85	360.52	11.600	8.4688	279.37	373.72	7.2058	2.4497e-06	0.079620
32.895	1.2500	39.871	0.025081	213.21	244.56	8.0613	7.5014	266.20	442.09	3.6093	4.0561e-06	0.099367	4.1190e-05	22.963	0.043548	301.07	355.50	11.434	8.4955	343.27	373.69	7.0345	2.4971e-06	0.084393
32.950	1.2600	39.016	0.025630	217.60	249.89	8.2156	7.5950	348.83	432.77	3.7846	3.9545e-06	0.10304	4.0461e-05	23.759	0.042090	296.70	349.73	11.246	8.5198	443.60	373.74	6.8411	2.5530e-06	0.090742
33.004	1.2700	37.996	0.026319	222.78	256.21	8.3991	7.7073	499.85	422.75	3.9897	3.8369e-06	0.10898	4.0182e-05	24.715	0.040461	291.46	342.84	11.024	8.5392	622.61	373.96	6.6152	2.6219e-06	0.099962
33.058	1.2800	36.693	0.027253	229.34	264.22	8.6337	7.8497	851.51	411.66	4.2444	3.6923e-06	0.12042	4.0051e-05	25.948	0.038539	284.74	334.07	10.747	8.5474	1026.5	374.53	6.3349	2.7135e-06	0.11572